# scan = 99
# date = 4/30/2024
# time = 1:04:48 PM
# proposal = 32124
# experiment = Investigation of Spin Waves and Magnetic Interactions in NiTiO3
# experiment_number = 418
# command = scan h 0 k 0 l 2.2 e 2 2.4 0.1 preset mcu 60
# builtin_command = scan h 0 k 0 l 2.2 e 2 2.4 0.1 preset mcu 60
# users = Armando Di Biase, John Schneeloch, Despina Louca, Rathnayaka Mudiyanselage Dilan Srimal Rathnayaka
# local_contact = Tao Hong
# scan_title = magnons, constant-Q, (0,0,L)
# monochromator = PG002
# analyzer = Pg002
# sense = -+-
# collimation = 48-40-40-120
# samplename = Single crystal
# sampletype = crystal
# samplemosaic = 30.000000
# latticeconstants = 5.013468,5.013468,13.803923,90.000000,90.000000,120.000000
# ubmatrix = -0.199159,-0.197149,-0.008262,0.022749,0.022749,-0.071970,0.113426,-0.116885,-0.000072
# mode = 0
# plane_normal = -0.008727,-0.000000,0.999962
# ubconf = UB30Apr2024_100100AM.ini
# preset_type = normal 
# preset_channel = mcu
# preset_value = 60.000000
# def_x = e
# def_y = detector
# col_headers = 
#   Pt.          h          k          l          e       time   detector    monitor        mcu focal_length         m1         m2       marc     mtrans     mfocus         s1         s2        sgl        sgu        bbb        bbl        bbr        bbt        bab        bal        bar        bat        stl        stu         a1         a2     afocus        qm1        qm2        qm3        qm4        qm5        qm6        qm7        qm8        xm1        xm2        xm3        xm4        xm5        xm6        xm7        xm8          q         ei         ef        vti     sample       temp
      1     0.0000     0.0000     2.2000     2.0000     57.879      3.000 132001.000     60.000    82.7010   148.8751   -62.2497     0.4200    -1.0000    31.9960   -50.6000    33.5552     0.5000     0.0000     0.0000     0.0000     0.0000     0.0000    20.0000     5.0000     5.0000    16.0000    -3.0000    -2.0000   142.0306   -75.9388     0.0000     0.0000     0.0000     0.0000     0.0000     0.0000     0.0000     0.0000     0.0000     0.0000     0.0000     0.0000     0.0000     0.0000     0.0000     0.0000     0.0000     1.0014     6.8000     4.8000     1.4985     1.4878     1.000
      2    -0.0000    -0.0000     2.2000     2.1000     58.413     17.000 132001.000     60.000    82.0977   149.1264   -61.7472     0.4200    -1.0000    32.1680   -49.9700    33.2818     0.5000     0.0000     0.0000     0.0000     0.0000     0.0000    20.0000     5.0000     5.0000    16.0000    -3.0000    -2.0000   142.0306   -75.9388     0.0000     0.0000     0.0000     0.0000     0.0000     0.0000     0.0000     0.0000     0.0000     0.0000     0.0000     0.0000     0.0000     0.0000     0.0000     0.0000     0.0000     1.0014     6.9000     4.8000     1.4984     1.4941     1.000
      3    -0.0000    -0.0000     2.2000     2.2000     59.261     46.000 132001.000     60.000    81.5169   149.3716   -61.2567     0.4200    -1.0000    32.3360   -49.3400    33.0059     0.5000     0.0000     0.0000     0.0000     0.0000     0.0000    20.0000     5.0000     5.0000    16.0000    -3.0000    -2.0000   142.0306   -75.9388     0.0000     0.0000     0.0000     0.0000     0.0000     0.0000     0.0000     0.0000     0.0000     0.0000     0.0000     0.0000     0.0000     0.0000     0.0000     0.0000     0.0000     1.0014     7.0000     4.8000     1.4984     1.4849     1.000
      4    -0.0000    -0.0000     2.2000     2.3000     59.847    100.000 132001.000     60.000    80.9442   149.6111   -60.7778     0.4200    -1.0000    32.5040   -48.7100    32.7274     0.5000     0.0000     0.0000     0.0000     0.0000     0.0000    20.0000     5.0000     5.0000    16.0000    -3.0000    -2.0000   142.0306   -75.9388     0.0000     0.0000     0.0000     0.0000     0.0000     0.0000     0.0000     0.0000     0.0000     0.0000     0.0000     0.0000     0.0000     0.0000     0.0000     0.0000     0.0000     1.0014     7.1000     4.8000     1.4984     1.4978     1.000
      5    -0.0000    -0.0000     2.2000     2.4000     60.670    109.000 132001.000     60.000    80.3795   149.8450   -60.3101     0.4200    -1.0000    32.6720   -48.0850    32.4462     0.5000     0.0000     0.0000     0.0000     0.0000     0.0000    20.0000     5.0000     5.0000    16.0000    -3.0000    -2.0000   142.0306   -75.9388     0.0000     0.0000     0.0000     0.0000     0.0000     0.0000     0.0000     0.0000     0.0000     0.0000     0.0000     0.0000     0.0000     0.0000     0.0000     0.0000     0.0000     1.0014     7.2000     4.8000     1.4985     1.4934     1.000
# Sum of Counts = 275
# Center of Mass = 2.307273+/-0.196848
# Full Width Half-Maximum = 0.190137+/-0.178759
# 1:11:38 PM  4/30/2024   scan completed.
