# scan = 94
# date = 4/30/2024
# time = 11:54:48 AM
# proposal = 32124
# experiment = Investigation of Spin Waves and Magnetic Interactions in NiTiO3
# experiment_number = 418
# command = scan h 0 k 0 l 2.0 e 1.5 1.9 0.1 preset mcu 60
# builtin_command = scan h 0 k 0 l 2.0 e 1.5 1.9 0.1 preset mcu 60
# users = Armando Di Biase, John Schneeloch, Despina Louca, Rathnayaka Mudiyanselage Dilan Srimal Rathnayaka
# local_contact = Tao Hong
# scan_title = alignment on cooling
# monochromator = PG002
# analyzer = Pg002
# sense = -+-
# collimation = 48-40-40-120
# samplename = Single crystal
# sampletype = crystal
# samplemosaic = 30.000000
# latticeconstants = 5.013468,5.013468,13.803923,90.000000,90.000000,120.000000
# ubmatrix = -0.199159,-0.197149,-0.008262,0.022749,0.022749,-0.071970,0.113426,-0.116885,-0.000072
# mode = 0
# plane_normal = -0.008727,-0.000000,0.999962
# ubconf = UB30Apr2024_100100AM.ini
# preset_type = normal 
# preset_channel = mcu
# preset_value = 60.000000
# def_x = e
# def_y = detector
# col_headers = 
#   Pt.          h          k          l          e       time   detector    monitor        mcu focal_length         m1         m2       marc     mtrans     mfocus         s1         s2        sgl        sgu        bbb        bbl        bbr        bbt        bab        bal        bar        bat        stl        stu         a1         a2     afocus        qm1        qm2        qm3        qm4        qm5        qm6        qm7        qm8        xm1        xm2        xm3        xm4        xm5        xm6        xm7        xm8          q         ei         ef        vti     sample       temp
      1     0.0000     0.0000     2.0000     1.5000     55.302      0.000 132001.000     60.000    85.9166   147.5186   -64.9628     0.4200    -1.0000    31.1200   -54.1700    31.4474     0.5000     0.0000     0.0000     0.0000     0.0000     0.0000    20.0000     5.0000     5.0000    16.0000    -3.0000    -2.0000   142.0306   -75.9388     0.0000     0.0000     0.0000     0.0000     0.0000     0.0000     0.0000     0.0000     0.0000     0.0000     0.0000     0.0000     0.0000     0.0000     0.0000     0.0000     0.0000     0.9103     6.3000     4.8000     1.4989     1.4817     1.000
      2     0.0000     0.0000     2.0000     1.6000     56.186      3.000 132001.000     60.000    85.2506   147.8042   -64.3915     0.4200    -1.0000    31.2960   -53.4300    31.1906     0.5000     0.0000     0.0000     0.0000     0.0000     0.0000    20.0000     5.0000     5.0000    16.0000    -3.0000    -2.0000   142.0306   -75.9388     0.0000     0.0000     0.0000     0.0000     0.0000     0.0000     0.0000     0.0000     0.0000     0.0000     0.0000     0.0000     0.0000     0.0000     0.0000     0.0000     0.0000     0.9103     6.4000     4.8000     1.4988     1.4896     1.000
      3     0.0000     0.0000     2.0000     1.7000     56.769      3.000 132001.000     60.000    84.5949   148.0824   -63.8352     0.4200    -1.0000    31.4720   -52.6925    30.9301     0.5000     0.0000     0.0000     0.0000     0.0000     0.0000    20.0000     5.0000     5.0000    16.0000    -3.0000    -2.0000   142.0306   -75.9388     0.0000     0.0000     0.0000     0.0000     0.0000     0.0000     0.0000     0.0000     0.0000     0.0000     0.0000     0.0000     0.0000     0.0000     0.0000     0.0000     0.0000     0.9103     6.5000     4.8000     1.4988     1.4905     1.000
      4    -0.0000    -0.0000     2.0000     1.8000     56.833     15.000 132001.000     60.000    83.9492   148.3534   -63.2932     0.4200    -1.0000    31.6480   -51.9600    30.6660     0.5000     0.0000     0.0000     0.0000     0.0000     0.0000    20.0000     5.0000     5.0000    16.0000    -3.0000    -2.0000   142.0306   -75.9388     0.0000     0.0000     0.0000     0.0000     0.0000     0.0000     0.0000     0.0000     0.0000     0.0000     0.0000     0.0000     0.0000     0.0000     0.0000     0.0000     0.0000     0.9103     6.6000     4.8000     1.4988     1.4936     1.000
      5    -0.0000    -0.0000     2.0000     1.9000     57.373     70.000 132001.000     60.000    83.3132   148.6175   -62.7649     0.4200    -1.0000    31.8240   -51.2300    30.3983     0.5000     0.0000     0.0000     0.0000     0.0000     0.0000    20.0000     5.0000     5.0000    16.0000    -3.0000    -2.0000   142.0306   -75.9388     0.0000     0.0000     0.0000     0.0000     0.0000     0.0000     0.0000     0.0000     0.0000     0.0000     0.0000     0.0000     0.0000     0.0000     0.0000     0.0000     0.0000     0.9103     6.7000     4.8000     1.4987     1.4895     1.000
# Sum of Counts = 91
# Center of Mass = 1.867033+/-0.276884
# Full Width Half-Maximum = 0.139244+/-0.236074
# 12:02:18 PM  4/30/2024   scan completed.
