# scan = 93
# date = 4/30/2024
# time = 11:48:50 AM
# proposal = 32124
# experiment = Investigation of Spin Waves and Magnetic Interactions in NiTiO3
# experiment_number = 418
# command = scan h 0 k 0 l 2.5 e 3.6 4.0 0.1 preset mcu 60
# builtin_command = scan h 0 k 0 l 2.5 e 3.6 4.0 0.1 preset mcu 60
# users = Armando Di Biase, John Schneeloch, Despina Louca, Rathnayaka Mudiyanselage Dilan Srimal Rathnayaka
# local_contact = Tao Hong
# scan_title = alignment on cooling
# monochromator = PG002
# analyzer = Pg002
# sense = -+-
# collimation = 48-40-40-120
# samplename = Single crystal
# sampletype = crystal
# samplemosaic = 30.000000
# latticeconstants = 5.013468,5.013468,13.803923,90.000000,90.000000,120.000000
# ubmatrix = -0.199159,-0.197149,-0.008262,0.022749,0.022749,-0.071970,0.113426,-0.116885,-0.000072
# mode = 0
# plane_normal = -0.008727,-0.000000,0.999962
# ubconf = UB30Apr2024_100100AM.ini
# preset_type = normal 
# preset_channel = mcu
# preset_value = 60.000000
# def_x = e
# def_y = detector
# col_headers = 
#   Pt.          h          k          l          e       time   detector    monitor        mcu focal_length         m1         m2       marc     mtrans     mfocus         s1         s2        sgl        sgu        bbb        bbl        bbr        bbt        bab        bal        bar        bat        stl        stu         a1         a2     afocus        qm1        qm2        qm3        qm4        qm5        qm6        qm7        qm8        xm1        xm2        xm3        xm4        xm5        xm6        xm7        xm8          q         ei         ef        vti     sample       temp
      1    -0.0000    -0.0000     2.5000     3.6000     63.508     16.000 132001.000     60.000    74.4099   152.2848   -55.4305     0.4200    -1.0000    34.6040   -42.0200    34.0938     0.5000     0.0000     0.0000     0.0000     0.0000     0.0000    20.0000     5.0000     5.0000    16.0000    -3.0000    -2.0000   142.0306   -75.9388     0.0000     0.0000     0.0000     0.0000     0.0000     0.0000     0.0000     0.0000     0.0000     0.0000     0.0000     0.0000     0.0000     0.0000     0.0000     0.0000     0.0000     1.1379     8.4000     4.8000     1.4989     1.4892     1.000
      2     0.0000     0.0000     2.5000     3.7000     63.887     20.000 132001.000     60.000    73.9777   152.4622   -55.0756     0.4200    -1.0000    34.7560   -41.5150    33.7919     0.5000     0.0000     0.0000     0.0000     0.0000     0.0000    20.0000     5.0000     5.0000    16.0000    -3.0000    -2.0000   142.0306   -75.9388     0.0000     0.0000     0.0000     0.0000     0.0000     0.0000     0.0000     0.0000     0.0000     0.0000     0.0000     0.0000     0.0000     0.0000     0.0000     0.0000     0.0000     1.1379     8.5000     4.8000     1.4989     1.4858     1.000
      3     0.0000     0.0000     2.5000     3.8000     64.322      9.000 132001.000     60.000    73.5392   152.6362   -54.7275     0.4200    -1.0000    34.9120   -41.0100    33.4882     0.5000     0.0000     0.0000     0.0000     0.0000     0.0000    20.0000     5.0000     5.0000    16.0000    -3.0000    -2.0000   142.0306   -75.9388     0.0000     0.0000     0.0000     0.0000     0.0000     0.0000     0.0000     0.0000     0.0000     0.0000     0.0000     0.0000     0.0000     0.0000     0.0000     0.0000     0.0000     1.1379     8.6000     4.8000     1.4989     1.4925     1.000
      4     0.0000     0.0000     2.5000     3.9000     63.949     10.000 132001.000     60.000    73.1170   152.8070   -54.3860     0.4200    -1.0000    35.0640   -40.5075    33.1826     0.5000     0.0000     0.0000     0.0000     0.0000     0.0000    20.0000     5.0000     5.0000    16.0000    -3.0000    -2.0000   142.0306   -75.9388     0.0000     0.0000     0.0000     0.0000     0.0000     0.0000     0.0000     0.0000     0.0000     0.0000     0.0000     0.0000     0.0000     0.0000     0.0000     0.0000     0.0000     1.1379     8.7000     4.8000     1.4987     1.4877     1.000
      5     0.0000     0.0000     2.5000     4.0000     64.156      5.000 132001.000     60.000    72.6996   152.9746   -54.0507     0.4200    -1.0000    35.2160   -40.0025    32.8752     0.5000     0.0000     0.0000     0.0000     0.0000     0.0000    20.0000     5.0000     5.0000    16.0000    -3.0000    -2.0000   142.0306   -75.9388     0.0000     0.0000     0.0000     0.0000     0.0000     0.0000     0.0000     0.0000     0.0000     0.0000     0.0000     0.0000     0.0000     0.0000     0.0000     0.0000     0.0000     1.1379     8.8000     4.8000     1.4989     1.4854     1.000
# Sum of Counts = 60
# Center of Mass = 3.746667+/-0.684241
# Full Width Half-Maximum = 0.254209+/-0.583957
# 11:54:47 AM  4/30/2024   scan completed.
