# scan = 85
# date = 4/30/2024
# time = 11:08:51 AM
# proposal = 32124
# experiment = Investigation of Spin Waves and Magnetic Interactions in NiTiO3
# experiment_number = 418
# command = scan h 0 k 0 l 1.49 e -0.2 0.2 0.1
# builtin_command = scan h 0 k 0 l 1.49 e -0.2 0.2 0.1
# users = Armando Di Biase, John Schneeloch, Despina Louca, Rathnayaka Mudiyanselage Dilan Srimal Rathnayaka
# local_contact = Tao Hong
# scan_title = alignment on cooling
# monochromator = PG002
# analyzer = Pg002
# sense = -+-
# collimation = 48-40-40-120
# samplename = Single crystal
# sampletype = crystal
# samplemosaic = 30.000000
# latticeconstants = 5.013468,5.013468,13.803923,90.000000,90.000000,120.000000
# ubmatrix = -0.199159,-0.197149,-0.008262,0.022749,0.022749,-0.071970,0.113426,-0.116885,-0.000072
# mode = 0
# plane_normal = -0.008727,-0.000000,0.999962
# ubconf = UB30Apr2024_100100AM.ini
# preset_type = normal 
# preset_channel = time
# preset_value = 1.000000
# def_x = e
# def_y = detector
# col_headers = 
#   Pt.          h          k          l          e       time   detector    monitor        mcu focal_length         m1         m2       marc     mtrans     mfocus         s1         s2        sgl        sgu        bbb        bbl        bbr        bbt        bab        bal        bar        bat        stl        stu         a1         a2     afocus        qm1        qm2        qm3        qm4        qm5        qm6        qm7        qm8        xm1        xm2        xm3        xm4        xm5        xm6        xm7        xm8          q         ei         ef        vti     sample       temp
      1     0.0000     0.0000     1.4900    -0.2000      1.000     20.000   2506.000      1.139   100.5558   141.0625   -77.8750     0.4200    -1.0000    27.8400   -73.0900    25.9981     0.5000     0.0000     0.0000     0.0000     0.0000     0.0000    20.0000     5.0000     5.0000    16.0000    -3.0000    -2.0000   142.0306   -75.9388     0.0000     0.0000     0.0000     0.0000     0.0000     0.0000     0.0000     0.0000     0.0000     0.0000     0.0000     0.0000     0.0000     0.0000     0.0000     0.0000     0.0000     0.6782     4.6000     4.8000     1.4987     1.4988     1.000
      2    -0.0000    -0.0000     1.4900    -0.1000      1.000   5037.000   2613.000      1.188    99.4809   141.5559   -76.8882     0.4200    -1.0000    28.0480   -71.8250    25.8784     0.5000     0.0000     0.0000     0.0000     0.0000     0.0000    20.0000     5.0000     5.0000    16.0000    -3.0000    -2.0000   142.0306   -75.9388     0.0000     0.0000     0.0000     0.0000     0.0000     0.0000     0.0000     0.0000     0.0000     0.0000     0.0000     0.0000     0.0000     0.0000     0.0000     0.0000     0.0000     0.6782     4.7000     4.8000     1.4986     1.4951     1.000
      3    -0.0000    -0.0000     1.4900     0.0000      1.000  70471.000   2543.000      1.156    98.4288   142.0306   -75.9387     0.4200    -1.0000    28.2560   -70.5775    25.7474     0.5000     0.0000     0.0000     0.0000     0.0000     0.0000    20.0000     5.0000     5.0000    16.0000    -3.0000    -2.0000   142.0306   -75.9388     0.0000     0.0000     0.0000     0.0000     0.0000     0.0000     0.0000     0.0000     0.0000     0.0000     0.0000     0.0000     0.0000     0.0000     0.0000     0.0000     0.0000     0.6782     4.8000     4.8000     1.4986     1.4928     1.000
      4    -0.0000    -0.0000     1.4900     0.1000      1.000  14095.000   2541.000      1.155    97.4378   142.4878   -75.0243     0.4200    -1.0000    28.4560   -69.3500    25.6058     0.5000     0.0000     0.0000     0.0000     0.0000     0.0000    20.0000     5.0000     5.0000    16.0000    -3.0000    -2.0000   142.0306   -75.9388     0.0000     0.0000     0.0000     0.0000     0.0000     0.0000     0.0000     0.0000     0.0000     0.0000     0.0000     0.0000     0.0000     0.0000     0.0000     0.0000     0.0000     0.6782     4.9000     4.8000     1.4987     1.4961     1.000
      5    -0.0000    -0.0000     1.4900     0.2000      1.000     30.000   2276.000      1.035    96.4474   142.9286   -74.1428     0.4200    -1.0000    28.6600   -68.1375    25.4538     0.5000     0.0000     0.0000     0.0000     0.0000     0.0000    20.0000     5.0000     5.0000    16.0000    -3.0000    -2.0000   142.0306   -75.9388     0.0000     0.0000     0.0000     0.0000     0.0000     0.0000     0.0000     0.0000     0.0000     0.0000     0.0000     0.0000     0.0000     0.0000     0.0000     0.0000     0.0000     0.6782     5.0000     4.8000     1.4986     1.4876     1.000
# Sum of Counts = 89653
# Center of Mass = 0.010126+/-0.000159
# Full Width Half-Maximum = 0.090637+/-0.000378
# 11:10:58 AM  4/30/2024   scan completed.
